Folder: helita/helita/data

Note: README.md
# Helita

Helita is a Python library for solar physics focused on interfacing with code and projects from the [Institute of Theoretical Astrophysics](http://astro.uio.no) (ITA) at the [University of Oslo](https://www.uio.no). The name comes from Helios + ITA.

Currently, the library is a loose collection of different scripts and classes with varying degrees of portability and usefulness.

## Installation

To make use of helita **you need a Fortran compiler** ([GFortran](https://gcc.gnu.org/wiki/GFortran) is recommended), because some modules are compiled from Fortran. In addition, before attempting to install helita you need the following:

 * [Python](http://www.python.org) (2.7.x, 3.4.x or later)
 * [Astropy](http://astropy.org)
 * [NumPy](http://numpy.scipy.org/)
 * [SciPy](http://www.scipy.org/)

The following packages are also recommended to take advantage of all the features:

* [Matplotlib](http://matplotlib.sourceforge.net/) (1.1+)

* [netCDF4](https://unidata.github.io/netcdf4-python/)
* [Cython](http://www.cython.org)
* [pandas](http://pandas.pydata.org/)
* [beautifulsoup4](http://www.crummy.com/software/BeautifulSoup/)

Helita will install without the above packages, but functionality will be limited.

All of the above Python packages are available through [Anaconda](https://docs.continuum.io/anaconda/), and that is the recommended way of setting up your Python distribution.

Next, use git to grab the latest version of helita:

    git clone https://github.com/ITA-solar/helita.git
    cd helita
    python setup.py install

### Non-root install

If you don't have write permission to your Python packages directory, use the following option with `setup.py`:

    python setup.py install --user

This will install helita under your home directory (typically `~/.local`).

### Developer install

If you want to install helita but also actively change the code or contribute to its development, it is recommended that you do a developer install instead:

    python setup.py develop

This will set up the package such as the source files used are from the git repository that you cloned (only a link to it is placed on the Python packages directory). Can also be combined with the `--user` flag for local installs.


## Documentation

Some form of documentation will be made available at http://helita.readthedocs.org, but right now there is little documentation other than that in docstrings.

File: BFI_filter_3883.txt
# BFI filter transmission function, for the 3883 filter
# Taken from solarsoft's fg_bfi_filter.pro on the 20/5/2013.
# Wavelength (nm)   Transmission (%)
386   2.89044E-01
386.02   1.36787E-01
386.04   2.19389E-01
386.06   1.12088E-01
386.08   2.25568E-01
386.1   4.30532E-01
386.12   7.04246E-01
386.14   2.87375E-01
386.16   4.74811E-01
386.18   2.38087E-01
386.2   6.43104E-01
386.22   2.85872E-01
386.24   3.53980E-01
386.26   5.14771E-01
386.28   5.17363E-01
386.3   6.42822E-01
386.32   5.19873E-01
386.34   6.32653E-01
386.36   2.00271E-01
386.38   3.15142E-01
386.4   5.20432E-01
386.42   7.93115E-02
386.44   5.84417E-01
386.46   2.79235E-01
386.48   1.66676E-01
386.5   6.18468E-01
386.52   3.77526E-01
386.54   2.59643E-01
386.56   5.30883E-01
386.58   4.83869E-01
386.6   7.71201E-01
386.62   3.48617E-01
386.64   6.15355E-01
386.66   4.10311E-01
386.68   6.00900E-01
386.7   6.84634E-01
386.72   3.17400E-01
386.74   1.03369E+00
386.76   4.46465E-01
386.78   7.77534E-01
386.8   8.60174E-01
386.82   7.54137E-01
386.84   5.97293E-01
386.86   3.82132E-01
386.88   7.16138E-01
386.9   7.92305E-01
386.919   7.26865E-01
386.939   7.32395E-01
386.959   6.67234E-01
386.979   9.72737E-01
386.999   1.30323E+00
387.019   7.15399E-01
387.039   8.20914E-01
387.059   7.44799E-01
387.079   1.03223E+00
387.099   1.24861E+00
387.119   1.09477E+00
387.139   1.24653E+00
387.159   1.05584E+00
387.179   1.30744E+00
387.199   1.40918E+00
387.219   1.74435E+00
387.239   1.31698E+00
387.259   1.42178E+00
387.279   1.31654E+00
387.299   2.15723E+00
387.319   1.94574E+00
387.339   1.81695E+00
387.359   2.28533E+00
387.379   2.93504E+00
387.399   3.22002E+00
387.419   3.91160E+00
387.439   5.44308E+00
387.459   6.29023E+00
387.479   7.92460E+00
387.499   1.21883E+01
387.519   1.45897E+01
387.539   2.02032E+01
387.559   2.52529E+01
387.579   3.47478E+01
387.599   4.25561E+01
387.619   4.90853E+01
387.639   5.70708E+01
387.659   6.05716E+01
387.679   6.08094E+01
387.699   6.50303E+01
387.719   6.49355E+01
387.739   6.44592E+01
387.759   6.25339E+01
387.779   6.42075E+01
387.799   6.39487E+01
387.819   6.55357E+01
387.839   6.46141E+01
387.859   6.40050E+01
387.879   6.49965E+01
387.899   6.50415E+01
387.919   6.45166E+01
387.939   6.39561E+01
387.959   6.29683E+01
387.979   6.20094E+01
387.999   5.73668E+01
388.019   5.50677E+01
388.039   5.11946E+01
388.059   4.40543E+01
388.079   3.86649E+01
388.099   3.31900E+01
388.119   2.77598E+01
388.139   2.18806E+01
388.159   1.76984E+01
388.179   1.29155E+01
388.199   9.53818E+00
388.219   7.89934E+00
388.239   6.16403E+00
388.259   5.25689E+00
388.279   4.48509E+00
388.299   3.39288E+00
388.319   3.25337E+00
388.339   2.69069E+00
388.359   2.22625E+00
388.379   1.63386E+00
388.399   1.94369E+00
388.419   1.52509E+00
388.439   1.58813E+00
388.459   1.04998E+00
388.479   1.48612E+00
388.499   1.26049E+00
388.519   1.06934E+00
388.539   9.46848E-01
388.559   1.21803E+00
388.579   9.15912E-01
388.599   1.21944E+00
388.619   8.26938E-01
388.639   4.99271E-01
388.659   8.27066E-01
388.679   9.52484E-01
388.699   7.52860E-01
388.719   9.45543E-01
388.738   6.79021E-01
388.758   8.17747E-01
388.778   8.26540E-01
388.798   6.34923E-01
388.818   7.07431E-01
388.838   6.06137E-01
388.858   8.69770E-01
388.878   8.06851E-01
388.898   6.39021E-01
388.918   7.31677E-01
388.938   7.54317E-01
388.958   4.23451E-01
388.978   4.83678E-01
388.998   6.54177E-01
389.018   0.00000E+00

File: BFI_filter_3968.txt
# BFI filter transmission function, for the 3968 (Ca II H) filter
# Taken from solarsoft's fg_bfi_filter.pro on the 20/5/2013.
# Wavelength (nm)   Transmission (%)
  396   2.53740E-01
  396.02   6.37775E-01
  396.04   4.14606E-01
  396.06   8.12945E-01
  396.08   7.38937E-01
  396.1   4.68404E-01
  396.12   6.51570E-01
  396.14   5.12500E-01
  396.16   6.43956E-01
  396.18   5.66855E-01
  396.2   6.90507E-01
  396.22   7.67514E-01
  396.24   5.87664E-01
  396.26   7.96482E-01
  396.28   7.91651E-01
  396.3   6.17089E-01
  396.32   9.02312E-01
  396.34   7.15580E-01
  396.36   7.40659E-01
  396.38   9.47676E-01
  396.4   8.31604E-01
  396.42   1.12443E+00
  396.44   1.04710E+00
  396.46   1.33443E+00
  396.48   1.19019E+00
  396.5   1.45499E+00
  396.52   1.81541E+00
  396.54   1.69929E+00
  396.56   1.96939E+00
  396.58   2.22284E+00
  396.6   2.81295E+00
  396.62   3.50649E+00
  396.64   3.88749E+00
  396.66   5.95858E+00
  396.68   7.97391E+00
  396.7   1.14715E+01
  396.72   1.84901E+01
  396.74   2.63031E+01
  396.76   3.50879E+01
  396.78   4.23638E+01
  396.8   5.01946E+01
  396.82   5.78016E+01
  396.84   6.01381E+01
  396.86   6.33840E+01
  396.88   6.13961E+01
  396.9   6.10987E+01
  396.919   5.46264E+01
  396.939   4.90763E+01
  396.959   3.73303E+01
  396.979   2.96821E+01
  396.999   2.21231E+01
  397.019   1.38891E+01
  397.039   9.33866E+00
  397.059   6.46698E+00
  397.079   5.21292E+00
  397.099   3.94465E+00
  397.119   2.74861E+00
  397.139   2.02311E+00
  397.159   1.80446E+00
  397.179   1.65910E+00
  397.199   1.48745E+00
  397.219   1.21760E+00
  397.239   1.19158E+00
  397.259   1.20855E+00
  397.279   1.33405E+00
  397.299   1.03141E+00
  397.319   9.88053E-01
  397.339   8.31518E-01
  397.359   6.05388E-01
  397.379   7.26313E-01
  397.399   7.72963E-01
  397.419   8.60328E-01
  397.439   5.86375E-01
  397.459   9.44049E-01
  397.479   6.95328E-01
  397.499   7.65778E-01
  397.519   8.27092E-01
  397.539   2.76170E-01
  397.559   4.15335E-01
  397.579   5.84384E-01
  397.599   4.31424E-01
  397.619   7.95662E-01
  397.639   5.59868E-01
  397.659   5.75197E-01
  397.679   7.40268E-01
  397.699   5.74246E-01
  397.719   7.58477E-01
  397.739   3.04751E-01
  397.759   3.62612E-01
  397.779   5.26113E-01
  397.799   5.73880E-01
  397.819   4.43177E-01
  397.839   3.45665E-01
  397.859   5.27581E-01
  397.879   5.09018E-01
  397.899   3.96636E-01
  397.919   4.82860E-01
  397.939   2.51373E-01
  397.959   5.90468E-01
  397.979   3.99789E-01
  397.999   3.65358E-01
  398.019   0.00000E+00

File: BFI_filter_4305.txt
# BFI filter transmission function, for the 4305 (CH I) filter
# Taken from solarsoft's fg_bfi_filter.pro on the 20/5/2013.
# Wavelength (nm)   Transmission (%)
  429   3.94160E-02
  429.02   2.23182E-01
  429.04   1.29573E-01
  429.06   6.00339E-02
  429.08   9.49330E-02
  429.1   8.02797E-02
  429.12   9.90571E-02
  429.14   1.35418E-01
  429.16   1.74734E-01
  429.18   3.68015E-01
  429.2   1.59350E-01
  429.22   1.90263E-01
  429.24   2.64815E-01
  429.26   5.33625E-02
  429.28   2.16579E-01
  429.3   9.67894E-02
  429.32   2.98385E-01
  429.34   2.74203E-01
  429.36   3.84818E-01
  429.38   4.62398E-01
  429.4   2.69006E-01
  429.42   2.00903E-01
  429.44   3.94483E-01
  429.46   2.92514E-01
  429.48   2.92258E-01
  429.5   1.13445E-01
  429.52   3.61263E-01
  429.54   2.65663E-01
  429.56   3.62475E-01
  429.58   5.59730E-01
  429.6   2.88353E-01
  429.62   5.02648E-01
  429.64   3.84716E-01
  429.66   2.63368E-01
  429.68   4.68815E-01
  429.7   4.31511E-01
  429.72   5.36949E-01
  429.74   5.70390E-01
  429.76   6.31438E-01
  429.78   8.22348E-01
  429.8   6.88179E-01
  429.82   7.64261E-01
  429.84   7.57337E-01
  429.86   7.24956E-01
  429.88   7.92464E-01
  429.9   8.47313E-01
  429.919   9.67047E-01
  429.939   1.12044E+00
  429.959   1.04128E+00
  429.979   1.30061E+00
  429.999   1.37475E+00
  430.019   1.48055E+00
  430.039   1.53857E+00
  430.059   1.60154E+00
  430.079   1.86719E+00
  430.099   2.08749E+00
  430.119   2.59548E+00
  430.139   3.20295E+00
  430.159   3.97622E+00
  430.179   5.19240E+00
  430.199   5.91244E+00
  430.219   9.14347E+00
  430.239   1.43131E+01
  430.259   1.90484E+01
  430.279   2.51508E+01
  430.299   3.15236E+01
  430.319   4.56567E+01
  430.339   5.90353E+01
  430.359   6.70573E+01
  430.379   7.38116E+01
  430.399   7.47980E+01
  430.419   7.45312E+01
  430.439   7.00333E+01
  430.459   6.67742E+01
  430.479   6.37160E+01
  430.499   6.00239E+01
  430.519   5.88069E+01
  430.539   5.74690E+01
  430.559   5.81959E+01
  430.579   5.87344E+01
  430.599   6.00341E+01
  430.619   6.36655E+01
  430.639   6.49713E+01
  430.659   6.76598E+01
  430.679   7.18611E+01
  430.699   7.25139E+01
  430.719   7.62452E+01
  430.739   7.87007E+01
  430.759   7.91024E+01
  430.779   8.04736E+01
  430.799   8.09427E+01
  430.819   7.83374E+01
  430.839   7.52064E+01
  430.859   7.09467E+01
  430.879   6.50463E+01
  430.899   6.11795E+01
  430.919   5.22459E+01
  430.939   4.06165E+01
  430.959   3.56073E+01
  430.979   3.00070E+01
  430.999   2.35505E+01
  431.019   1.76006E+01
  431.039   1.43009E+01
  431.059   1.11291E+01
  431.079   8.99256E+00
  431.099   8.15456E+00
  431.119   5.86636E+00
  431.139   4.64321E+00
  431.159   4.25721E+00
  431.179   3.42677E+00
  431.199   2.99285E+00
  431.219   2.59174E+00
  431.239   1.84675E+00
  431.259   1.86472E+00
  431.279   1.50710E+00
  431.299   1.44675E+00
  431.319   1.36759E+00
  431.339   1.43260E+00
  431.359   1.35210E+00
  431.379   1.29364E+00
  431.399   8.84148E-01
  431.419   9.54416E-01
  431.439   8.90238E-01
  431.459   6.66421E-01
  431.479   8.11600E-01
  431.499   6.79269E-01
  431.519   7.84977E-01
  431.539   6.58522E-01
  431.559   5.71623E-01
  431.579   6.90635E-01
  431.599   5.96698E-01
  431.619   6.98738E-01
  431.639   5.70932E-01
  431.659   4.73476E-01
  431.679   6.30977E-01
  431.699   5.19802E-01
  431.719   4.81807E-01
  431.738   5.75975E-01
  431.758   4.52057E-01
  431.778   5.79608E-01
  431.798   4.08019E-01
  431.818   5.30836E-01
  431.838   4.14523E-01
  431.858   3.60953E-01
  431.878   3.46448E-01
  431.898   3.90027E-01
  431.918   3.44342E-01
  431.938   3.24756E-01
  431.958   2.01604E-01
  431.978   3.95132E-01
  431.998   2.95525E-01
  432.018   0.00000E+00

File: BFI_filter_4504.txt
# BFI filter transmission function, for the 4504 (red continuum) filter
# Taken from solarsoft's fg_bfi_filter.pro on the 20/5/2013.
# Wavelength (nm)   Transmission (%)
  449.5   6.03980E-01
  449.52   8.59870E-01
  449.54   8.21544E-01
  449.56   6.90119E-01
  449.58   7.17690E-01
  449.6   6.59262E-01
  449.62   7.58373E-01
  449.64   6.75276E-01
  449.66   7.58665E-01
  449.68   6.69968E-01
  449.7   7.47373E-01
  449.72   8.47416E-01
  449.74   9.25990E-01
  449.76   8.43972E-01
  449.78   7.44842E-01
  449.8   7.22041E-01
  449.82   8.41185E-01
  449.84   7.84675E-01
  449.86   7.63858E-01
  449.88   7.83325E-01
  449.9   7.83525E-01
  449.92   9.08490E-01
  449.94   8.42910E-01
  449.96   9.14441E-01
  449.98   7.90329E-01
  450   7.82786E-01
  450.02   8.32279E-01
  450.04   8.74256E-01
  450.06   8.75799E-01
  450.08   8.11030E-01
  450.1   9.33057E-01
  450.12   9.46912E-01
  450.14   1.11212E+00
  450.16   1.11947E+00
  450.18   1.14965E+00
  450.2   1.23532E+00
  450.22   1.39517E+00
  450.24   1.65985E+00
  450.26   1.84382E+00
  450.28   2.72082E+00
  450.3   3.63499E+00
  450.32   6.26672E+00
  450.34   9.48759E+00
  450.36   1.77336E+01
  450.38   2.91372E+01
  450.4   4.35769E+01
  450.419   5.50476E+01
  450.439   6.22327E+01
  450.459   6.69548E+01
  450.479   7.05949E+01
  450.499   7.07608E+01
  450.519   7.10104E+01
  450.539   6.98106E+01
  450.559   6.79127E+01
  450.579   5.84763E+01
  450.599   4.95630E+01
  450.619   3.79101E+01
  450.639   2.53185E+01
  450.659   1.65100E+01
  450.679   8.26842E+00
  450.699   4.97013E+00
  450.719   3.39672E+00
  450.739   2.46840E+00
  450.759   1.90419E+00
  450.779   1.53816E+00
  450.799   1.35130E+00
  450.819   1.18498E+00
  450.839   1.18303E+00
  450.859   1.14286E+00
  450.879   1.18416E+00
  450.899   1.06884E+00
  450.919   1.08183E+00
  450.939   1.17854E+00
  450.959   1.08518E+00
  450.979   1.15130E+00
  450.999   1.05106E+00
  451.019   9.70885E-01
  451.039   9.35153E-01
  451.059   9.66382E-01
  451.079   9.13385E-01
  451.099   1.03556E+00
  451.119   1.00712E+00
  451.139   9.75047E-01
  451.159   9.28771E-01
  451.179   9.02216E-01
  451.199   8.00065E-01
  451.219   8.77375E-01
  451.239   8.99593E-01
  451.259   9.00373E-01
  451.279   7.86938E-01
  451.299   8.51661E-01
  451.319   1.01332E+00
  451.339   8.36849E-01
  451.359   8.06861E-01
  451.379   7.62376E-01
  451.399   7.81179E-01
  451.419   7.05085E-01
  451.439   7.87141E-01
  451.459   7.41554E-01
  451.479   8.20278E-01
  451.499   7.91663E-01
  451.519   0.00000E+00

File: BFI_filter_5550.txt
# BFI filter transmission function, for the 5550 (green continuum) filter
# Taken from solarsoft's fg_bfi_filter.pro on the 20/5/2013.
# Wavelength (nm)   Transmission (%)
  554   8.56501E-01
  554.02   5.13122E-01
  554.04   7.81568E-01
  554.06   6.65980E-01
  554.08   5.94819E-01
  554.1   6.74314E-01
  554.12   6.63830E-01
  554.14   8.65471E-01
  554.16   6.90009E-01
  554.18   7.34297E-01
  554.2   8.84232E-01
  554.22   5.00583E-01
  554.24   7.91309E-01
  554.26   7.20990E-01
  554.28   7.01429E-01
  554.3   8.40140E-01
  554.32   8.06831E-01
  554.34   1.00176E+00
  554.36   9.29628E-01
  554.38   9.73039E-01
  554.4   1.08170E+00
  554.42   7.34961E-01
  554.44   1.08519E+00
  554.46   9.01923E-01
  554.48   9.76593E-01
  554.5   1.07801E+00
  554.521   1.07660E+00
  554.541   1.35923E+00
  554.561   1.32984E+00
  554.581   1.38886E+00
  554.601   1.55738E+00
  554.621   1.45622E+00
  554.641   1.86292E+00
  554.661   2.09185E+00
  554.681   2.37270E+00
  554.701   2.85958E+00
  554.721   3.15233E+00
  554.741   4.24431E+00
  554.761   5.05355E+00
  554.781   6.22658E+00
  554.801   8.82773E+00
  554.821   1.01243E+01
  554.841   1.41100E+01
  554.861   1.70075E+01
  554.881   2.36511E+01
  554.901   3.15081E+01
  554.921   3.83420E+01
  554.941   4.61742E+01
  554.961   5.50035E+01
  554.981   6.21874E+01
  555.001   6.71316E+01
  555.021   6.93629E+01
  555.041   7.12550E+01
  555.061   7.13580E+01
  555.081   7.02158E+01
  555.101   6.68838E+01
  555.121   6.18322E+01
  555.141   5.59924E+01
  555.161   4.55988E+01
  555.181   3.61477E+01
  555.201   2.73335E+01
  555.221   2.14989E+01
  555.241   1.54379E+01
  555.261   1.17817E+01
  555.281   9.21167E+00
  555.301   6.27112E+00
  555.321   5.17325E+00
  555.341   4.29243E+00
  555.361   3.37283E+00
  555.381   2.74664E+00
  555.401   2.28086E+00
  555.421   1.90081E+00
  555.441   1.71767E+00
  555.461   1.61036E+00
  555.481   1.31882E+00
  555.501   1.30767E+00
  555.521   1.09596E+00
  555.542   1.23909E+00
  555.562   9.81801E-01
  555.582   9.09110E-01
  555.602   9.80684E-01
  555.622   6.87673E-01
  555.642   7.99713E-01
  555.662   7.14248E-01
  555.682   7.10472E-01
  555.702   7.96468E-01
  555.722   6.24500E-01
  555.742   8.20447E-01
  555.762   6.55930E-01
  555.782   5.57917E-01
  555.802   7.56729E-01
  555.822   4.19045E-01
  555.842   6.17821E-01
  555.862   4.76560E-01
  555.882   5.22281E-01
  555.902   5.91956E-01
  555.922   4.66439E-01
  555.942   7.83963E-01
  555.962   5.63319E-01
  555.982   5.03350E-01
  556.002   6.32220E-01

File: BFI_filter_6684.txt
# BFI filter transmission function, for the 6684 (blue continuum) filter
# Taken from solarsoft's fg_bfi_filter.pro on the 20/5/2013.
# Wavelength (nm)   Transmission (%)
  667.5   5.84927E-01
  667.52   5.48671E-01
  667.54   4.76462E-01
  667.56   6.53497E-01
  667.58   5.07547E-01
  667.6   6.06368E-01
  667.62   5.10064E-01
  667.64   4.26534E-01
  667.66   4.70421E-01
  667.68   4.48958E-01
  667.7   5.10423E-01
  667.72   5.04737E-01
  667.74   5.64231E-01
  667.76   6.63579E-01
  667.78   6.62066E-01
  667.8   7.39114E-01
  667.82   7.29035E-01
  667.84   6.45570E-01
  667.86   8.30004E-01
  667.88   9.07289E-01
  667.9   9.84925E-01
  667.92   9.88724E-01
  667.94   9.72527E-01
  667.96   1.26011E+00
  667.98   1.32165E+00
  668   1.52239E+00
  668.021   1.66195E+00
  668.041   1.81549E+00
  668.061   2.11224E+00
  668.081   2.33319E+00
  668.101   2.89723E+00
  668.121   3.50625E+00
  668.141   4.15713E+00
  668.161   5.24399E+00
  668.181   6.21673E+00
  668.201   8.13868E+00
  668.221   1.10955E+01
  668.241   1.41287E+01
  668.261   1.81728E+01
  668.281   2.25069E+01
  668.301   2.91285E+01
  668.321   4.14081E+01
  668.341   5.04012E+01
  668.361   5.70938E+01
  668.381   6.78263E+01
  668.401   7.58278E+01
  668.421   7.98645E+01
  668.441   8.12296E+01
  668.461   8.22755E+01
  668.481   8.25568E+01
  668.501   8.16077E+01
  668.521   8.01305E+01
  668.541   7.77678E+01
  668.561   7.42166E+01
  668.581   6.80716E+01
  668.601   5.94155E+01
  668.621   4.84869E+01
  668.641   4.02291E+01
  668.661   3.18232E+01
  668.681   2.54800E+01
  668.701   1.78751E+01
  668.721   1.32858E+01
  668.741   1.04033E+01
  668.761   8.26953E+00
  668.781   6.70834E+00
  668.801   5.07603E+00
  668.821   4.05731E+00
  668.841   3.26032E+00
  668.861   2.93052E+00
  668.881   2.42399E+00
  668.901   2.12203E+00
  668.921   1.90375E+00
  668.941   1.66630E+00
  668.961   1.55380E+00
  668.981   1.34347E+00
  669.001   1.22637E+00
  669.021   1.07262E+00
  669.042   9.26428E-01
  669.062   8.72812E-01
  669.082   8.44504E-01
  669.102   8.85276E-01
  669.122   8.47512E-01
  669.142   7.97393E-01
  669.162   8.44732E-01
  669.182   7.28825E-01
  669.202   7.75924E-01
  669.222   7.24461E-01
  669.242   5.42126E-01
  669.262   7.37140E-01
  669.282   5.33663E-01
  669.302   6.82437E-01
  669.322   6.58033E-01
  669.342   6.71916E-01
  669.362   7.92185E-01
  669.382   6.66101E-01
  669.402   6.90590E-01
  669.422   6.09262E-01
  669.442   4.35582E-01
  669.462   4.38039E-01
  669.482   3.48864E-01
  669.502   4.11322E-01